"Time (s)","Linear Acceleration x (m/s^2)","Linear Acceleration y (m/s^2)","Linear Acceleration z (m/s^2)","Absolute acceleration (m/s^2)"
3.663564200E-2,1.069785118E0,-1.836714268E0,1.496201038E0,2.599341657E0
4.663564200E-2,1.067242146E0,-1.850755215E0,1.514780045E0,2.618942391E0
5.663564200E-2,1.064895391E0,-1.864507198E0,1.533032894E0,2.638290951E0
6.663497500E-2,1.062719941E0,-1.877975464E0,1.550997734E0,2.657397126E0
7.663447500E-2,1.073959112E0,-1.871137142E0,1.540279865E0,2.650849759E0
8.663347500E-2,1.083545923E0,-1.867054939E0,1.533454418E0,2.647913965E0
9.663280800E-2,1.090416431E0,-1.865132332E0,1.529897690E0,2.647321958E0
1.066319500E-1,1.094883084E0,-1.864709854E0,1.528665543E0,2.648155990E0
1.166309500E-1,1.098238945E0,-1.865014553E0,1.528558254E0,2.649697794E0
1.266300610E-1,1.102150440E0,-1.864585400E0,1.527402878E0,2.650353534E0
1.366290610E-1,1.107074261E0,-1.861730099E0,1.522943974E0,2.647831325E0
1.466279700E-1,1.111911058E0,-1.854598999E0,1.512957096E0,2.639114022E0
1.566269700E-1,1.115804911E0,-1.845625877E0,1.500746250E0,2.627469274E0
1.666258930E-1,1.118460178E0,-1.835784435E0,1.487636566E0,2.614215029E0
1.766247500E-1,1.119797945E0,-1.825955868E0,1.474782467E0,2.600585625E0
1.866236830E-1,1.120359778E0,-1.815877914E0,1.461775780E0,2.586388807E0
1.966226200E-1,1.121713400E0,-1.804759979E0,1.447356701E0,2.571038886E0
2.066216200E-1,1.122437954E0,-1.792695045E0,1.431894302E0,2.554201202E0
2.166205640E-1,1.118146300E0,-1.780428886E0,1.416957378E0,2.535339500E0
2.266195640E-1,1.104996681E0,-1.769922256E0,1.405616283E0,2.515829803E0
2.366186140E-1,1.085582018E0,-1.763648033E0,1.400597095E0,2.500122982E0
2.466177090E-1,1.064553857E0,-1.761528969E0,1.401131630E0,2.489865271E0
2.566167540E-1,1.045879960E0,-1.761410236E0,1.403888702E0,2.483411847E0
2.666158400E-1,1.032313228E0,-1.760828018E0,1.405302048E0,2.478116171E0
2.766148810E-1,1.023772955E0,-1.758547783E0,1.403788090E0,2.472088665E0
2.866138810E-1,1.016582251E0,-1.755111217E0,1.400621891E0,2.464872520E0
2.966129190E-1,1.007165909E0,-1.752075195E0,1.398334503E0,2.457537394E0
3.066119190E-1,9.939565659E-1,-1.750957012E0,1.399111271E0,2.451797802E0
3.166109540E-1,9.745175838E-1,-1.756050110E0,1.408762455E0,2.453162890E0
3.266099540E-1,9.517252445E-1,-1.762606144E0,1.420937061E0,2.455936378E0
3.366089200E-1,9.262596369E-1,-1.770408154E0,1.435276508E0,2.460146459E0
3.466078860E-1,8.983919621E-1,-1.777219772E0,1.448948860E0,2.462736493E0
3.566067860E-1,8.688192368E-1,-1.782131672E0,1.460683823E0,2.462607844E0
3.666056860E-1,8.382493258E-1,-1.785469532E0,1.470769882E0,2.460432366E0
3.766045860E-1,8.081287146E-1,-1.790789604E0,1.483494282E0,2.461860010E0
3.866035190E-1,7.781002522E-1,-1.801455975E0,1.503249168E0,2.471930762E0
3.966023520E-1,7.491819859E-1,-1.818699837E0,1.531524658E0,2.492892000E0
4.066012520E-1,7.241009474E-1,-1.841423035E0,1.566457748E0,2.523678041E0
4.166001520E-1,-1.337265015E0,-5.680068016E0,3.444087982E0,6.775927421E0
4.265989850E-1,-1.347549558E0,-5.705003738E0,3.479434967E0,6.816848623E0
4.365978850E-1,-1.350903749E0,-5.734441757E0,3.519633770E0,6.862695176E0
4.465967850E-1,-5.729308724E-1,-6.307744503E0,1.237858200E1,1.390486184E1
4.565956850E-1,-6.418890357E-1,-6.299646854E0,1.142364311E1,1.306128608E1
4.665945850E-1,-4.420732260E-1,-6.202625751E0,1.005660152E1,1.182384156E1
4.765934850E-1,-2.829026580E-1,-6.212330818E0,9.189596176E0,1.109602478E1
4.865923850E-1,-1.585133076E-1,-6.373249054E0,8.330009460E0,1.048963715E1
4.965912510E-1,-2.601338029E-1,-6.628205776E0,7.495371342E0,1.000906454E1
5.065900510E-1,-5.453668833E-1,-6.871558666E0,6.687863827E0,9.604335797E0
5.165889170E-1,-1.029200196E0,-7.072712421E0,5.860428333E0,9.242680038E0
5.265877170E-1,-1.487827063E0,-7.159281731E0,4.593677044E0,8.635439366E0
5.365864500E-1,-1.902003527E0,-7.168742657E0,3.374495983E0,8.148356388E0
5.465851500E-1,-2.250637770E0,-7.095686436E0,2.020972013E0,7.713524761E0
5.565838830E-1,-2.335186005E0,-7.074212074E0,3.906161785E-1,7.459902891E0
5.665825830E-1,-1.480201244E0,-6.626174927E0,-7.795858383E-2,6.789938691E0
5.765813160E-1,-8.750488162E-1,-6.406748772E0,-1.568215966E0,6.653678800E0
5.865800820E-1,-8.051226139E-1,-6.083756447E0,-2.751737356E0,6.725501721E0
5.965788480E-1,-7.147693634E-1,-6.258992195E0,-4.445439339E0,7.710240558E0
6.065776140E-1,-6.422128677E-1,-5.842654228E0,-4.420875549E0,7.354807028E0
6.165763140E-1,-1.509279728E0,-5.918771744E0,-6.528883934E0,8.940699619E0
6.265750800E-1,-2.240847349E0,-6.338014603E0,-5.635487080E0,8.772145722E0
6.365738460E-1,-2.260094404E0,-6.892981052E0,-6.968307495E0,1.005875359E1
6.465725460E-1,-2.814453840E0,-6.142845154E0,-4.325855255E0,8.023011946E0
6.565713120E-1,-3.456750154E0,-7.115462303E0,-2.831760645E0,8.402249328E0
6.665700780E-1,-2.442897558E0,-8.924456596E0,-4.579948425E0,1.032422402E1
6.765687780E-1,-2.734940290E0,-9.113332748E0,-5.568236351E0,1.102442689E1
6.865675440E-1,-1.662803888E0,-9.907328606E0,-5.976493835E0,1.168924957E1
6.965663100E-1,-1.087214708E0,-1.021894932E1,-5.570204735E0,1.168914632E1
7.065650430E-1,-6.461546421E-1,-1.068889236E1,-5.444444656E0,1.201298936E1
7.165638090E-1,-8.301579952E-1,-1.084924221E1,-5.319395065E0,1.211161355E1
7.265625750E-1,-1.178979874E0,-1.090642452E1,-5.557075500E0,1.229720202E1
7.365613410E-1,-1.249026418E0,-1.089188671E1,-4.591694832E0,1.188599699E1
7.465601070E-1,-1.518187881E0,-1.069365215E1,-3.273738861E0,1.128611789E1
7.565588070E-1,-1.882720113E0,-1.017864704E1,-2.210465193E0,1.058468927E1
7.665575400E-1,-1.895606041E0,-9.772854805E0,-1.123777866E0,1.001822789E1
7.765563060E-1,-2.009694576E0,-9.655668259E0,-1.379798651E0,9.958646802E0
7.865550060E-1,-8.946317434E-1,-8.644923210E0,9.031901360E-1,8.737895381E0
7.965537720E-1,-5.988262892E-1,-6.971464634E0,3.454609871E0,7.803476240E0
8.065525380E-1,1.621100307E-1,-6.423850060E0,6.166896820E0,8.906331772E0
8.165513040E-1,6.910895109E-1,-5.688712120E0,1.005076218E1,1.156965300E1
8.265500700E-1,9.210230112E-1,-5.601807594E0,1.458748817E1,1.565322149E1
8.365488030E-1,1.940889359E-1,-5.851571560E0,1.836759186E1,1.927814802E1
8.465476030E-1,-1.191766500E0,-6.011184216E0,2.149081612E1,2.234747906E1
8.565463690E-1,-2.650825739E0,-6.059890270E0,2.401712608E1,2.491127240E1
8.665451020E-1,-3.190782547E0,-6.187877178E0,2.609951591E1,2.701213891E1
8.765438680E-1,-3.023913383E0,-6.409477234E0,2.664507294E1,2.757145920E1
8.865426010E-1,-3.273363113E0,-6.043567657E0,2.643241882E1,2.731139654E1
8.965412340E-1,-3.145603180E0,-5.845084190E0,2.571820641E1,2.656098585E1
9.065399670E-1,-2.560187340E0,-5.775086403E0,2.508271790E1,2.586597996E1
9.165387000E-1,-1.892822742E0,-5.854078293E0,2.434753990E1,2.511285945E1
9.265373660E-1,-1.396643400E0,-5.874128342E0,2.322251129E1,2.399460413E1
9.365360990E-1,-1.103485942E0,-5.882210732E0,2.195140266E1,2.275262981E1
9.465348320E-1,-8.595085144E-1,-6.103639126E0,2.040533066E1,2.131597253E1
9.565335650E-1,-7.153222561E-1,-6.419441700E0,1.944882774E1,2.049336035E1
9.665322980E-1,-6.805844903E-1,-6.720004559E0,1.787585831E1,1.910936856E1
9.765310310E-1,-8.015879989E-1,-7.008376598E0,1.639403152E1,1.784724504E1
9.865297640E-1,-1.099713445E0,-7.053143501E0,1.476173210E1,1.639710150E1
9.965284970E-1,-1.237421632E0,-7.109517574E0,1.264744949E1,1.456140210E1
1.006527230E0,-8.525961637E-1,-7.491899967E0,9.412584305E0,1.206035773E1
1.016525996E0,-4.610518217E-1,-8.083059311E0,6.897002220E0,1.063565025E1
1.026524762E0,-6.891490817E-1,-8.578452110E0,4.123148918E0,9.542804832E0
1.036523462E0,-1.388937235E0,-8.397397995E0,2.280445099E-1,8.514543090E0
1.046522228E0,-2.043941259E0,-8.225765228E0,-3.041127205E0,9.004963306E0
1.056520961E0,-2.226643801E0,-7.686305046E0,-6.506193638E0,1.031347582E1
1.066519761E0,-2.695280075E0,-8.757826805E0,-6.300377846E0,1.112019901E1
1.076518527E0,-2.624972343E0,-8.861035347E0,-5.605862141E0,1.080898319E1
1.086517293E0,-1.433610678E0,-1.026859856E1,-6.846804619E0,1.242489796E1
1.096516059E0,-2.830761909E0,-9.117650032E0,-8.014553070E0,1.246506382E1
1.106514825E0,-2.640291214E0,-1.072834015E1,-9.795169830E0,1.476528943E1
1.116513525E0,-2.608658075E0,-1.058238602E1,-1.204986572E1,1.624780769E1
1.126512291E0,-2.593627691E0,-1.061571217E1,-1.414331245E1,1.787326318E1
1.136511091E0,-2.384732723E0,-1.074512863E1,-1.448590469E1,1.819302543E1
1.146509791E0,-2.524068832E0,-1.057398033E1,-1.382139969E1,1.758439856E1
1.156508557E0,-2.316886663E0,-1.079969692E1,-1.318309975E1,1.719870740E1
1.166507323E0,-1.764934182E0,-1.112441158E1,-1.267872143E1,1.695928957E1
1.176506023E0,-4.743265808E-1,-1.107322884E1,-1.209038067E1,1.640178915E1
1.186504789E0,3.805510402E-1,-1.087159348E1,-9.441353798E0,1.440401074E1
1.196503589E0,8.079722524E-1,-9.969106674E0,-8.544116974E0,1.315438489E1
1.206502355E0,1.489569187E0,-9.826038361E0,-7.098999977E0,1.221333889E1
1.216501121E0,1.324631691E0,-9.758504868E0,-7.260178566E0,1.223491966E1
1.226499887E0,1.612335205E0,-9.838379860E0,-6.762925148E0,1.204701206E1
1.236498653E0,1.171986103E0,-9.921312332E0,-7.381747246E0,1.242160144E1
1.246497419E0,8.097915649E-1,-1.015938282E1,-8.050442696E0,1.298762678E1
1.256496152E0,5.715943575E-1,-1.046272278E1,-7.886907578E0,1.311482364E1
1.266494952E0,7.494306564E-2,-1.077594185E1,-7.399406910E0,1.307202210E1
1.276493818E0,-3.973138332E-1,-1.104709148E1,-6.281414032E0,1.271425384E1
1.286492618E0,-1.011530876E0,-1.113438892E1,-4.938999653E0,1.222258275E1
1.296491484E0,-2.356895924E0,-1.095680428E1,-2.693920135E0,1.152665277E1
1.306490317E0,-3.019339085E0,-1.094270325E1,1.129660606E0,1.140768583E1
1.316489150E0,-3.116825104E0,-1.068677902E1,3.337367058E0,1.162152587E1
1.326487983E0,-3.421737194E0,-9.631596565E0,6.198682785E0,1.195406233E1
1.336486816E0,-1.255364060E0,-9.500232697E0,8.850955963E0,1.304491402E1
1.346485649E0,-1.038665771E-1,-8.202528000E0,1.118048096E1,1.386706199E1
1.356484515E0,2.578513622E-1,-7.034411907E0,1.258189297E1,1.441712415E1
1.366483281E0,-1.746919155E-1,-6.291047096E0,1.431358433E1,1.563606367E1
1.376482114E0,-7.512603998E-1,-6.804220676E0,1.547024345E1,1.691715826E1
1.386480947E0,-1.799077749E0,-6.877687454E0,1.749989700E1,1.888877075E1
1.396479713E0,-2.579468489E0,-7.082374096E0,1.915509033E1,2.058473138E1
1.406478546E0,-3.440140724E0,-6.828132153E0,2.119282532E1,2.252984247E1
1.416477379E0,-3.158638239E0,-6.975315094E0,2.308586121E1,2.432260274E1
1.426476145E0,-1.987845659E0,-6.301627636E0,2.460173988E1,2.547366575E1
1.436474978E0,-9.035373926E-1,-6.260389328E0,2.572257423E1,2.648885954E1
1.446473811E0,-4.102368355E-1,-6.144932270E0,2.599290085E1,2.671253229E1
1.456472644E0,-5.474448204E-1,-6.008730412E0,2.582843399E1,2.652381080E1
1.466471477E0,-9.926564693E-1,-6.188541889E0,2.526100159E1,2.602694025E1
1.476470310E0,-1.700748205E0,-6.652833939E0,2.450257874E1,2.544659326E1
1.486469143E0,-2.432503939E0,-7.203467369E0,2.295640182E1,2.418270875E1
1.496467976E0,-2.598071575E0,-7.391481876E0,2.181267929E1,2.317707829E1
1.506466742E0,-2.447851896E0,-7.698164940E0,2.031364250E1,2.186087359E1
1.516465575E0,-2.293210745E0,-7.846633434E0,1.886547089E1,2.056050738E1
1.526464408E0,-2.152268410E0,-7.998481750E0,1.753591537E1,1.939371799E1
1.536463174E0,-1.711568594E0,-8.356762886E0,1.583694267E1,1.798815461E1
1.546462007E0,-1.217163801E0,-8.673924446E0,1.348895836E1,1.608323508E1
1.556460807E0,-6.968992949E-1,-8.795382500E0,1.115793800E1,1.422476722E1
1.566459607E0,-2.296254635E-1,-8.865440369E0,9.035612106E0,1.266061005E1
1.576458340E0,-3.179436922E-1,-8.576272011E0,6.636854649E0,1.084902620E1
1.586457073E0,-2.324881554E-1,-8.410327911E0,4.005418777E0,9.318317761E0
1.596455773E0,1.595741510E-1,-8.492029190E0,6.039061546E-1,8.514970717E0
1.606454506E0,7.189327478E-1,-8.833430290E0,-2.708657026E0,9.267317728E0
1.616453172E0,2.254948616E-1,-8.615481377E0,-7.503264427E0,1.142700067E1
1.626451905E0,-5.670823455E-1,-8.952789307E0,-1.082745457E1,1.406086026E1
1.636450638E0,-1.509321570E0,-9.855439186E0,-1.246074581E1,1.595863150E1
1.646449304E0,-3.206058025E0,-1.087718201E1,-1.446082115E1,1.837681270E1
1.656448037E0,-4.124810219E0,-1.100725174E1,-1.485473347E1,1.894298700E1
1.666446737E0,-3.890493631E0,-1.111089230E1,-1.463640976E1,1.878330000E1
1.676445437E0,-4.812775612E0,-1.117092896E1,-1.561021233E1,1.978967386E1
1.686444203E0,-4.714682579E0,-1.190120316E1,-1.598461342E1,2.047864093E1
1.696442969E0,-4.758174419E0,-1.124298859E1,-1.446218014E1,1.892616365E1
1.706441735E0,-3.487665892E0,-1.174864292E1,-1.422394276E1,1.877538206E1
1.716440501E0,-2.316201210E0,-1.243243504E1,-1.168553162E1,1.721864914E1
1.726439267E0,-1.145599604E0,-1.183247566E1,-1.075718307E1,1.603236933E1
1.736438033E0,-2.404764891E-1,-1.175376129E1,-9.738491058E0,1.526587507E1
1.746436799E0,5.323191881E-1,-1.118829536E1,-8.485284805E0,1.405209504E1
1.756435499E0,1.319770575E0,-1.107588387E1,-8.130245209E0,1.380282163E1
1.766434265E0,1.581284761E0,-1.095873451E1,-8.341522217E0,1.386273121E1
1.776433031E0,9.475503564E-1,-1.083778572E1,-8.207788467E0,1.362803150E1
1.786431731E0,-1.538282037E-1,-1.100574493E1,-8.488939285E0,1.390007823E1
1.796430497E0,-5.647407174E-1,-1.113524818E1,-8.422548294E0,1.397326032E1
1.806429263E0,-5.613768101E-1,-1.160395145E1,-7.888266563E0,1.404249204E1
1.816428029E0,-6.563028097E-1,-1.150879669E1,-8.047612190E0,1.405870537E1
1.826426762E0,-1.394146681E0,-1.193745613E1,-6.480677128E0,1.365451134E1
1.836425528E0,-2.302338600E0,-1.175007725E1,-5.530632019E0,1.318912313E1
1.846424294E0,-2.933414936E0,-1.130339050E1,-3.339284897E0,1.214587929E1
1.856423060E0,-2.912003517E0,-1.071295261E1,-5.293526649E-1,1.111428506E1
1.866421760E0,-1.605655193E0,-1.023106575E1,2.983832359E0,1.077757350E1
1.876420526E0,-2.287256718E-1,-9.791694641E0,6.993855953E0,1.203509952E1
1.886419259E0,6.825048923E-1,-8.959177017E0,1.101188469E1,1.421246883E1
1.896417992E0,3.043920517E0,-8.863027573E0,1.387108326E1,1.673994207E1
1.906416758E0,3.302530527E0,-7.496020317E0,1.660959244E1,1.851960014E1
1.916415524E0,3.081886768E0,-6.991617680E0,1.815788078E1,1.969998422E1
1.926414224E0,2.174975634E0,-5.640343189E0,1.638980484E1,1.746910682E1
1.936412990E0,1.548622847E0,-6.304248810E0,1.850721359E1,1.961271885E1
1.946411756E0,3.334348202E-1,-6.219375134E0,1.886108589E1,1.986283884E1
1.956410522E0,-7.505493164E-1,-5.513832092E0,1.946601486E1,2.024577495E1
1.966409322E0,3.299214840E-1,-6.119947910E0,2.081595993E1,2.169946540E1
1.976408055E0,6.341722012E-1,-5.832832813E0,2.159812927E1,2.238086909E1
1.986406788E0,1.578093290E0,-5.392905235E0,2.195286751E1,2.266058687E1
1.996405521E0,2.390601635E0,-5.267493725E0,2.227590752E1,2.301472403E1
2.006404187E0,2.690502644E0,-5.476775169E0,2.268581390E1,2.349212683E1
2.016402920E0,2.239993334E0,-6.008180141E0,2.317035294E1,2.404123653E1
2.026401653E0,9.835245609E-1,-6.668851852E0,2.383798981E1,2.477278070E1
2.036400319E0,3.832514286E-1,-7.291852474E0,2.365700150E1,2.475826557E1
2.046399052E0,7.205772400E-2,-7.943481445E0,2.284632683E1,2.418798750E1
2.056397785E0,-3.559429646E-1,-8.378118515E0,2.188821411E1,2.343957086E1
2.066396518E0,-7.300678492E-1,-8.916174889E0,2.052323341E1,2.238826218E1
2.076395251E0,-9.424821138E-1,-9.420014381E0,1.937166214E1,2.156122069E1
2.086394017E0,-1.004074574E0,-9.769945145E0,1.766532326E1,2.021196773E1
2.096392783E0,-9.038205147E-1,-1.000025749E1,1.781416893E1,2.044912360E1
2.106391549E0,-1.719033718E-1,-1.034731102E1,1.357054329E1,1.706622516E1
2.116390215E0,1.360082626E-2,-1.057604408E1,1.127838707E1,1.546140059E1
2.126389015E0,1.275022030E-1,-1.089297676E1,9.109292984E0,1.420043725E1
2.136387781E0,-1.331819296E-1,-1.084476948E1,7.313647747E0,1.308113932E1
2.146386481E0,-3.722587824E-1,-1.063699055E1,4.695367813E0,1.163316910E1
2.156385247E0,-8.263731003E-2,-1.079622364E1,2.216499329E0,1.102171235E1
2.166384013E0,4.486055374E-1,-1.115675163E1,-6.721181870E-1,1.118597769E1
2.176382679E0,6.647518873E-1,-1.058548737E1,-6.137012482E0,1.225387123E1
2.186381479E0,1.676749945E0,-1.133973122E1,-6.794701099E0,1.332550027E1
2.196380245E0,2.455508709E-1,-1.044267845E1,-1.013672829E1,1.455551747E1
2.206379011E0,-1.304087996E0,-1.036484051E1,-1.188827896E1,1.582598309E1
2.216377777E0,-2.178002596E0,-1.065751839E1,-1.258855724E1,1.663725239E1
2.226376543E0,-3.113426208E0,-1.141133595E1,-1.166542435E1,1.661307124E1
2.236375309E0,-4.331436634E0,-1.126203918E1,-1.323290634E1,1.790822940E1
2.246374075E0,-4.739508152E0,-1.116232491E1,-1.405646515E1,1.856460738E1
2.256372775E0,-4.810462475E0,-1.173691750E1,-1.404928207E1,1.892823574E1
2.266371541E0,-5.278183460E0,-1.176425171E1,-1.379392147E1,1.888197840E1
2.276370307E0,-4.943862438E0,-1.207215881E1,-1.407810211E1,1.919301314E1
2.286369007E0,-3.856486797E0,-1.210699081E1,-1.369640160E1,1.868269610E1
2.296367773E0,-2.172440052E0,-1.205556011E1,-1.256903267E1,1.755097170E1
2.306366539E0,-8.349840641E-1,-1.168610382E1,-1.130905914E1,1.628364331E1
2.316365339E0,1.541399062E-1,-1.131100464E1,-1.005597210E1,1.513555945E1
2.326364172E0,8.477473259E-1,-1.113739586E1,-8.609014511E0,1.410231871E1
2.336363072E0,5.935520530E-1,-1.111726761E1,-8.281879425E0,1.387571511E1
2.346361938E0,-2.448400855E-1,-1.127797318E1,-7.818367004E0,1.372514074E1
2.356360838E0,-9.801954031E-1,-1.153086853E1,-7.992925644E0,1.406444355E1
2.366359671E0,-1.483091831E0,-1.188415051E1,-8.302378654E0,1.457264856E1
2.376358571E0,-1.677948594E0,-1.231693077E1,-8.610404015E0,1.512155258E1
2.386357437E0,-2.418368816E0,-1.230279541E1,-8.766895294E0,1.529920703E1
2.396356237E0,-2.624446869E0,-1.230272198E1,-8.712282181E0,1.530191329E1
2.406355103E0,-2.524198532E0,-1.226250076E1,-7.551936150E0,1.462095219E1
2.416353969E0,-2.245767355E0,-1.208334541E1,-6.363674641E0,1.384005283E1
2.426352769E0,-1.595947027E0,-1.178862000E1,-4.451775551E0,1.270184687E1
2.436351635E0,-7.134664059E-2,-1.156893921E1,-7.310237885E-1,1.159223191E1
2.446350501E0,6.031407118E-1,-1.033649826E1,4.217267513E0,1.117999643E1
2.456349367E0,1.498508215E0,-9.763909340E0,7.767560482E0,1.256640157E1
2.466348233E0,1.821376562E0,-9.465535164E0,1.210613060E1,1.547488826E1
2.476347099E0,1.690684319E0,-8.906637192E0,1.483007717E1,1.738153585E1
2.486345965E0,2.141444921E0,-8.879325867E0,1.678746414E1,1.911144072E1
2.496344831E0,3.323544502E0,-8.828854561E0,1.860095215E1,2.085641488E1
2.506343631E0,3.807930946E0,-8.023197174E0,2.080908203E1,2.262498455E1
2.516342497E0,4.342226028E0,-7.131487370E0,2.360997581E1,2.504284323E1
2.526341363E0,4.028745651E0,-6.866788864E0,2.278101349E1,2.413209805E1
2.536340163E0,4.223212242E0,-6.273039818E0,2.607284164E1,2.714736859E1
2.546339029E0,3.082685471E0,-5.571500301E0,2.697284698E1,2.771423894E1
2.556337895E0,5.090489864E0,-6.390184402E0,2.611440468E1,2.736255974E1
2.566336761E0,7.558770657E0,-7.760692596E0,2.673593712E1,2.884742098E1
2.576335627E0,7.526184559E0,-7.805751801E0,2.812794876E1,3.014555882E1
2.586334493E0,7.265794277E0,-8.333769798E0,2.848896790E1,3.055920119E1
2.596333359E0,6.627414703E0,-9.038970947E0,2.828100967E1,3.042106391E1
2.606332225E0,5.190287590E0,-9.492614746E0,2.721103859E1,2.928292064E1
2.616330991E0,4.069751263E0,-9.995433807E0,2.392852020E1,2.624967907E1
2.626329791E0,2.901434898E0,-1.027338409E1,2.041504288E1,2.303768046E1
2.636328524E0,2.047152996E0,-1.041910744E1,1.792270660E1,2.083199576E1
2.646327224E0,1.430908680E0,-1.057528973E1,1.539963722E1,1.873587679E1
2.656325957E0,8.099737167E-1,-1.074193001E1,1.292904091E1,1.682870216E1
2.666324690E0,5.568075180E-1,-1.099361134E1,1.106200409E1,1.560568676E1
2.676323356E0,4.063155651E-1,-1.123200130E1,9.408935547E0,1.465779703E1
2.686322089E0,1.045181751E-1,-1.116115856E1,7.749242306E0,1.358797780E1
2.696320822E0,-8.904910088E-2,-1.102991295E1,6.638488293E0,1.287386640E1
2.706319555E0,-1.278834343E-1,-1.066031075E1,5.030540943E0,1.178833837E1
2.716318355E0,2.661173344E-1,-1.063029861E1,3.232081890E0,1.111397411E1
2.726317121E0,4.259102345E-1,-1.053760433E1,1.033189297E0,1.059669688E1
2.736315887E0,7.418601513E-1,-1.031809616E1,-2.449069738E0,1.063068236E1
2.746314653E0,5.209944248E-1,-9.600304604E0,-6.763921738E0,1.175533585E1
2.756313353E0,3.371176720E-1,-9.736682892E0,-8.767315865E0,1.310658115E1
2.766312119E0,-2.231746912E-1,-9.981628418E0,-1.060779953E1,1.456736502E1
2.776310919E0,-1.283481717E0,-1.052718925E1,-1.120399380E1,1.542720052E1
2.786309619E0,-2.292347193E0,-1.091248703E1,-1.216686821E1,1.650363326E1
2.796308385E0,-3.500765800E0,-1.182747936E1,-1.162092972E1,1.694669988E1
2.806307151E0,-5.258708000E0,-1.095022678E1,-1.305646610E1,1.783347368E1
2.816305917E0,-5.774862289E0,-1.125951481E1,-1.409146023E1,1.893924390E1
2.826304683E0,-5.564769745E0,-1.121166515E1,-1.402692223E1,1.879953842E1
2.836303449E0,-3.975890636E0,-1.178895760E1,-1.390228939E1,1.865638973E1
2.846302215E0,-5.136710167E0,-1.025192833E1,-1.168894100E1,1.637434480E1
2.856300981E0,-3.017296553E0,-1.165765285E1,-1.382183266E1,1.833161222E1
2.866299681E0,-1.930869699E0,-1.104465199E1,-1.166326046E1,1.617851167E1
2.876298447E0,-2.593178749E-1,-1.084582710E1,-9.788286209E0,1.461197311E1
2.886297213E0,8.480214477E-1,-1.018215179E1,-9.884675026E0,1.421626378E1
2.896295913E0,1.389591217E0,-1.002782917E1,-7.942627430E0,1.286754258E1
2.906294679E0,9.602118731E-1,-9.821612358E0,-7.618663311E0,1.246716114E1
2.916293445E0,-2.944946289E-2,-1.006605148E1,-7.383672714E0,1.248378478E1
2.926292145E0,-1.249094605E0,-1.038957310E1,-7.580280304E0,1.292145951E1
2.936290911E0,-1.967219949E0,-1.063092041E1,-8.093322754E0,1.350512111E1
2.946289677E0,-2.268786907E0,-1.121305656E1,-8.587038040E0,1.430444874E1
2.956288443E0,-2.388014317E0,-1.165095711E1,-9.193923950E0,1.503248654E1
2.966287209E0,-2.575620174E0,-1.203855896E1,-9.249684334E0,1.539861622E1
2.976285975E0,-2.657920599E0,-1.218407917E1,-8.735609055E0,1.522587248E1
2.986284741E0,-2.614964247E0,-1.224092484E1,-6.993775368E0,1.433845085E1
2.996283507E0,-2.327179432E0,-1.230141449E1,-4.803053856E0,1.340932097E1
3.006282207E0,-1.029096365E0,-1.190087605E1,-9.973759651E-1,1.198685316E1
3.016280940E0,1.779367924E-1,-1.125807190E1,2.726403236E0,1.158486595E1
3.026279673E0,9.795010090E-1,-1.059186935E1,6.552021027E0,1.249304199E1
3.036278339E0,1.640783072E0,-9.431284904E0,7.958658695E0,1.244915870E1
3.046277072E0,4.284620285E-1,-8.759401321E0,1.092200947E1,1.400717609E1
3.056275805E0,2.561423779E-1,-9.095182419E0,1.180175495E1,1.490199222E1
3.066274538E0,-1.176354885E-1,-8.529326439E0,1.395686722E1,1.635718161E1
3.076273271E0,2.137045860E-1,-8.288618088E0,1.624018860E1,1.823432437E1
3.086272004E0,1.514816999E0,-7.770441055E0,1.891411400E1,2.050410040E1
3.096270737E0,3.508799791E0,-7.808919907E0,2.103958893E1,2.271464744E1
3.106269437E0,4.766772270E0,-7.605712891E0,2.363269997E1,2.527990297E1
3.116268137E0,5.100020409E0,-7.398901939E0,2.496910477E1,2.653695821E1
3.126266903E0,4.887330055E0,-7.199029922E0,2.643078041E1,2.782621390E1
3.136265669E0,4.286327362E0,-7.065755844E0,2.743760681E1,2.865518758E1
3.146264369E0,3.521794796E0,-7.098418236E0,2.840280724E1,2.948745562E1
3.156263135E0,2.847393036E0,-7.307619572E0,2.916014481E1,3.019640700E1
3.166261901E0,2.884552479E0,-7.844100475E0,2.870321274E1,2.989523335E1
3.176260601E0,3.049740791E0,-8.255968094E0,2.794914436E1,2.930216031E1
3.185165113E0,3.139934540E0,-8.436723709E0,2.642913055E1,2.792017976E1
3.195163879E0,3.001217842E0,-8.476572037E0,2.444883347E1,2.605004875E1
3.205162645E0,2.637059212E0,-8.408823013E0,2.220493698E1,2.388978049E1
3.215161411E0,2.195765018E0,-8.433835030E0,2.046885300E1,2.224690766E1
3.225160177E0,2.003135920E0,-8.785617828E0,1.841541290E1,2.050187959E1
3.235158943E0,1.961840153E0,-9.297920227E0,1.671899033E1,1.923082876E1
3.245157709E0,1.703892946E0,-9.684978485E0,1.444653702E1,1.747582591E1
3.255156409E0,1.379817486E0,-1.001916695E1,1.222985458E1,1.587000144E1
3.265155142E0,8.126244545E-1,-1.000691032E1,1.013418102E1,1.426535095E1
3.275153908E0,3.900728226E-1,-9.972742081E0,7.969913960E0,1.277212864E1
3.285152608E0,6.881239414E-1,-1.011634064E1,4.982182026E0,1.129761038E1
3.295151374E0,1.082730770E0,-1.059204865E1,1.877374649E0,1.081149092E1
3.305150140E0,1.281371593E0,-1.092523098E1,2.212060928E0,1.122032970E1
3.315148906E0,3.315947056E-1,-1.134059906E1,-4.099198341E0,1.206327357E1
3.325147639E0,-1.573450565E-1,-1.141445065E1,-6.590884686E0,1.318158571E1
3.335146405E0,-2.901566029E-1,-1.159439945E1,-8.670389175E0,1.448067464E1
3.345145171E0,-1.496289849E0,-1.176401520E1,-9.497365952E0,1.519312005E1
3.355143971E0,-2.417800903E0,-1.207182884E1,-9.561243057E0,1.558820649E1
3.365142804E0,-3.366033554E0,-1.281061172E1,-8.605720520E0,1.579558104E1
3.375141704E0,-4.498582840E0,-1.295080757E1,-7.904331207E0,1.582526828E1
3.385140670E0,-5.324404716E0,-1.332666397E1,-9.737459183E0,1.734264598E1
3.395139603E0,-5.338079929E0,-1.243117809E1,-1.237014675E1,1.833166159E1
3.405138636E0,-4.287748337E0,-1.173325825E1,-1.447458935E1,1.911982928E1
3.415137636E0,-3.189082384E0,-1.149705601E1,-1.426941490E1,1.860023508E1
3.425136636E0,-2.382022858E0,-1.142321396E1,-1.321562386E1,1.762999047E1
3.435135669E0,-1.888517141E0,-1.139331532E1,-1.189935112E1,1.658217983E1
3.445134735E0,-2.314368486E0,-1.121649361E1,-1.073695755E1,1.569867153E1
3.455133801E0,-2.883532286E0,-1.097569180E1,-1.037483406E1,1.537588211E1
3.465132867E0,-3.313620090E0,-1.117006969E1,-9.343090057E0,1.493465322E1
3.475131933E0,-3.258274317E0,-1.133111763E1,-8.596422195E0,1.459140339E1
3.485130999E0,-3.055095911E0,-1.107450676E1,-7.945083141E0,1.396791527E1
3.495130065E0,-2.417832851E0,-1.086705017E1,-7.089158058E0,1.319828993E1
3.505129031E0,-1.980876684E0,-1.065172672E1,-6.176979065E0,1.247149650E1
3.515128097E0,-1.712449789E0,-1.034799099E1,-6.309043884E0,1.223999332E1
3.525127163E0,-1.813044548E0,-1.024705601E1,-6.536594391E0,1.228887113E1
3.535126163E0,-1.582283258E0,-1.014375019E1,-7.507954597E0,1.271883133E1
3.545125229E0,-1.926900625E0,-1.034414577E1,-7.492925644E0,1.291736167E1
3.555124295E0,-1.920871019E0,-1.070006275E1,-7.495796204E0,1.320484945E1
3.565123395E0,-1.962085605E0,-1.095766926E1,-7.073042870E0,1.318894351E1
3.575122461E0,-1.772215366E0,-1.131071949E1,-6.442061901E0,1.313671512E1
3.585121527E0,-1.830995917E0,-1.130130863E1,-4.726738453E0,1.238604777E1
3.595120593E0,-1.321359396E0,-1.132585430E1,-2.840264082E0,1.175108788E1
3.605119659E0,-7.985010147E-1,-1.126197720E1,-1.375393867E-1,1.129108725E1
3.615118659E0,-1.022242665E0,-1.090944481E1,2.501893044E0,1.123923640E1
3.625117759E0,-7.092659473E-1,-1.067813206E1,5.269272804E0,1.192857067E1
3.635116825E0,-2.920992374E-1,-1.062316132E1,8.495563507E0,1.360556789E1
3.645115825E0,2.009322643E-1,-1.061123180E1,1.038609123E1,1.484956246E1
3.655114858E0,2.267556429E0,-1.113521481E1,1.202019691E1,1.654146169E1
3.665113791E0,3.034428596E0,-1.068242264E1,1.384731197E1,1.775021012E1
3.675112657E0,2.342052460E0,-1.006733894E1,1.508228874E1,1.828419965E1
3.685111523E0,1.303667545E0,-9.091953278E0,1.835898209E1,2.052840439E1
3.695110356E0,6.906700134E-1,-8.578883171E0,2.131383705E1,2.298595030E1
3.705109189E0,1.991387367E0,-8.187459946E0,2.277812004E1,2.428668105E1
3.715107989E0,3.992969513E0,-8.102381706E0,2.461549187E1,2.622050409E1
3.725106722E0,3.794008255E0,-7.837381363E0,2.458179474E1,2.607841402E1
3.735105488E0,1.125834465E1,-8.975305557E0,3.289084625E1,3.590423654E1
3.745104221E0,9.711938858E0,-6.010675907E0,3.689534378E1,3.862274426E1
3.755102887E0,6.023561954E0,-6.326018333E0,2.952559662E1,3.079062621E1
3.765101620E0,4.219026089E0,-6.657214165E0,2.232268333E1,2.367321002E1
3.775100353E0,3.639164925E0,-6.769968987E0,2.189635658E1,2.320617230E1
3.785099019E0,3.376734257E0,-7.245692253E0,2.286002350E1,2.421741243E1
3.795097752E0,3.358510971E0,-7.991778374E0,2.234560585E1,2.396819180E1
3.805096518E0,3.024274349E0,-8.508188248E0,2.160604095E1,2.341701322E1
3.815095251E0,2.704304695E0,-8.934096336E0,1.995455551E1,2.202988032E1
3.825093984E0,2.265537262E0,-9.283657074E0,1.770180130E1,2.011647874E1
3.835092750E0,1.933667898E0,-9.609766006E0,1.600092125E1,1.876475833E1
3.845091516E0,1.567863703E0,-9.905783653E0,1.371154594E1,1.698791449E1
3.855090282E0,1.118290663E0,-1.008715630E1,1.223599434E1,1.589719641E1
3.865088982E0,1.059651852E0,-1.064577103E1,1.062824345E1,1.508028055E1
3.875087748E0,7.772748470E-1,-1.105156898E1,9.038114548E0,1.429786165E1
3.885086514E0,4.335563183E-1,-1.153940868E1,6.972869873E0,1.348950845E1
3.895085214E0,2.984464169E-1,-1.195005798E1,4.965593338E0,1.294411346E1
3.905083980E0,-2.439444065E-1,-1.197044563E1,3.209780693E0,1.239571578E1
3.915082746E0,-8.311898708E-1,-1.162895203E1,1.434676647E0,1.174656115E1
3.925081446E0,-8.397639990E-1,-1.171319771E1,-5.195803642E-1,1.175475086E1
3.935080212E0,-6.956791878E-1,-1.177218628E1,-2.553705215E0,1.206605775E1
3.945078978E0,-4.048264027E-2,-1.167165375E1,-4.582667828E0,1.253913811E1
3.955077744E0,4.371726513E-1,-1.165369415E1,-5.958048820E0,1.309572652E1
3.965076510E0,2.357816696E-1,-1.195468235E1,-7.058375359E0,1.388490856E1
3.975075276E0,-1.137450695E0,-1.228098679E1,-7.128359795E0,1.424534815E1
3.985074042E0,-9.875900149E-1,-1.246483898E1,-6.694373131E0,1.418316525E1
3.995072808E0,-3.568132639E0,-1.241929531E1,-1.190856743E1,1.757226351E1
4.005071508E0,-3.746174335E0,-1.124517345E1,-1.418760395E1,1.848718080E1
4.015070274E0,-3.633679152E0,-1.135844707E1,-1.368413448E1,1.815140437E1
4.025069040E0,-3.400562763E0,-1.142711067E1,-1.445130920E1,1.873454091E1
4.035067740E0,-3.721365690E0,-1.139612484E1,-1.296437550E1,1.765772511E1
4.045066506E0,-4.401260853E0,-1.130543423E1,-1.219328880E1,1.720058813E1
4.055065272E0,-4.889652729E0,-1.122585583E1,-1.193176270E1,1.709665183E1
4.065064005E0,-4.462449074E0,-1.114437866E1,-1.160740757E1,1.669857892E1
4.075062771E0,-3.712709427E0,-1.125745201E1,-1.045370579E1,1.580488538E1
4.085061537E0,-2.773684978E0,-1.127411079E1,-9.198645592E0,1.481262918E1
4.095060303E0,-1.975829124E0,-1.101156712E1,-7.691545963E0,1.357639092E1
4.105059069E0,-1.504558325E0,-1.066274929E1,-6.479866505E0,1.256768030E1
4.115057769E0,-1.231909037E0,-1.065662098E1,-5.920057297E0,1.225268334E1
4.125056535E0,-1.045224905E0,-1.072733593E1,-6.182603836E0,1.242549079E1
4.135055235E0,-1.288867116E0,-1.057072830E1,-6.577071190E0,1.251636292E1
4.145053901E0,-1.418897390E0,-1.054698086E1,-7.439076424E0,1.298429563E1
4.155052634E0,-1.768320680E0,-1.049161339E1,-8.005612373E0,1.331505685E1
4.165051367E0,-1.847338200E0,-1.077633858E1,-8.345539093E0,1.375464119E1
4.175050033E0,-1.853245735E0,-1.092767239E1,-8.758861542E0,1.412679012E1
4.185048766E0,-1.962131023E0,-1.134556580E1,-8.236562729E0,1.415672232E1
4.195047466E0,-2.091109991E0,-1.123921204E1,-8.440222740E0,1.421020718E1
4.205046199E0,-1.761084318E0,-1.209361839E1,-6.473202705E0,1.382965571E1
4.215044932E0,-7.562937140E-1,-1.236784935E1,-4.020045757E0,1.302675883E1
4.225043665E0,6.001418829E-1,-1.220316505E1,-1.142097712E0,1.227117740E1
4.235042398E0,2.404271126E0,-1.180325603E1,1.602364063E0,1.215174651E1
4.245041164E0,3.549287319E0,-1.225826263E1,5.825218201E0,1.402838588E1
4.255039864E0,2.636788845E0,-1.192213249E1,7.918701649E0,1.455320358E1
4.265038630E0,2.611448526E0,-1.293386078E1,1.051527786E1,1.687232902E1
4.275037396E0,1.874889135E0,-1.264372063E1,1.320412064E1,1.837736875E1
4.285036096E0,1.321330547E0,-1.226969624E1,1.581884956E1,2.006308455E1
4.295034862E0,1.000043154E0,-1.154952908E1,1.820672226E1,2.158417114E1
4.305033628E0,1.558122873E0,-1.092119217E1,2.000416565E1,2.284440476E1
4.315032394E0,3.081393719E0,-1.030630112E1,2.160274124E1,2.413282534E1
4.325031160E0,4.663682461E0,-9.507789612E0,2.420066643E1,2.641628764E1
4.335029926E0,6.766646862E0,-8.823709488E0,2.506136513E1,2.741746489E1
4.345028692E0,8.296129227E0,-8.126543999E0,2.623608780E1,2.869144089E1
4.355027425E0,9.399425507E0,-8.111470222E0,2.803437424E1,3.066058199E1
4.365026158E0,8.282230377E0,-8.144666672E0,2.998554039E1,3.215685880E1
4.375024924E0,7.254345894E0,-6.669314384E0,2.936235809E1,3.097181560E1
4.385023690E0,7.305422306E0,-7.105538368E0,2.921463585E1,3.094111857E1
4.395022390E0,7.348406315E0,-7.107858658E0,2.918236923E1,3.092137455E1
4.405021156E0,6.875099182E0,-6.855404377E0,2.619622612E1,2.793753427E1
4.415019922E0,6.598351002E0,-6.878344536E0,2.414176369E1,2.595524250E1
4.425018622E0,6.073487759E0,-7.125389576E0,2.199942589E1,2.390885128E1
4.435017422E0,6.147802830E0,-7.387426376E0,2.210176277E1,2.410098475E1
4.445016222E0,4.953478336E0,-8.112959862E0,1.701833153E1,1.949309296E1
4.455015022E0,4.329657078E0,-8.481549263E0,1.451774597E1,1.736224514E1
4.465013855E0,3.663308144E0,-8.888833046E0,1.285758781E1,1.605455524E1
4.475012755E0,2.969639778E0,-9.407868385E0,1.146886158E1,1.512817021E1
4.485011655E0,1.990557671E0,-1.013829041E1,1.000297546E1,1.438077781E1
4.495010588E0,1.703467846E0,-1.089421654E1,8.702334404E0,1.404693492E1
4.505009421E0,1.246006727E0,-1.174654961E1,6.906956673E0,1.368356718E1
4.515008321E0,3.879897594E-1,-1.221795845E1,5.017490387E0,1.321379032E1
4.525007221E0,-5.833745003E-1,-1.253325176E1,3.238028049E0,1.295791462E1
4.535006054E0,-1.430621028E0,-1.256878662E1,1.178409100E0,1.270471258E1
4.545004920E0,-2.195238829E0,-1.226021385E1,-1.173945904E0,1.251039832E1
4.555003786E0,-2.163400888E0,-1.213505268E1,-2.898926020E0,1.266268451E1
4.565002652E0,-1.311729431E0,-1.161866474E1,-5.132142544E0,1.276921656E1
4.575001518E0,-3.235741854E-1,-1.155000877E1,-6.717214584E0,1.336519265E1
4.585000384E0,-2.765754461E-1,-1.131456184E1,-7.743327618E0,1.371331201E1
4.594999250E0,-6.694980860E-1,-1.136666489E1,-8.518133163E0,1.421998210E1
4.604998116E0,-1.718001604E0,-1.178800201E1,-8.861769676E0,1.484720454E1
4.614996916E0,-2.711084127E0,-1.244439983E1,-9.303972244E0,1.577266509E1
4.624995782E0,-3.605019093E0,-1.229603958E1,-1.191744995E1,1.749898184E1
4.634994648E0,-3.890714407E0,-1.129269600E1,-1.512583351E1,1.927312847E1
4.644993448E0,-3.613593578E0,-1.066649818E1,-1.631395912E1,1.982366021E1
4.654992314E0,-3.386222839E0,-1.091012955E1,-1.612986374E1,1.976537215E1
4.664991180E0,-3.175315857E0,-1.113913822E1,-1.570084190E1,1.951100888E1
4.674989980E0,-3.245323658E0,-1.117157364E1,-1.503898907E1,1.901334730E1
4.684988846E0,-3.324184418E0,-1.140231609E1,-1.373656654E1,1.815919257E1
4.694987712E0,-3.223263264E0,-1.141669846E1,-1.324226475E1,1.777886401E1
4.704986578E0,-2.773763180E0,-1.149430656E1,-1.229559422E1,1.705856039E1
4.714985411E0,-2.138129711E0,-1.149266911E1,-1.103599739E1,1.607626450E1
4.724984277E0,-1.138896465E0,-1.159959793E1,-8.882440567E0,1.465419762E1
4.734983143E0,-3.246442676E-1,-1.164281559E1,-7.674328804E0,1.394832862E1
4.744981976E0,-1.455312967E-1,-1.133852100E1,-6.486488819E0,1.306360498E1
4.754980742E0,-1.520329714E-1,-1.127000141E1,-6.304833889E0,1.291460322E1
4.764979542E0,-3.209667206E-1,-1.146135998E1,-6.648904800E0,1.325419659E1
4.774978275E0,-7.254534960E-1,-1.181832981E1,-7.289728165E0,1.390465170E1
4.784976908E0,-1.191390872E0,-1.235175514E1,-8.506061554E0,1.504454554E1
4.794975641E0,-1.635156155E0,-1.294445801E1,-8.247501373E0,1.543547886E1
4.804974374E0,-1.747509241E0,-1.367114639E1,-6.797005177E0,1.536728055E1
4.814973107E0,-1.168868542E0,-1.432723236E1,-4.870051384E0,1.517739244E1
4.824971840E0,-7.623269558E-1,-1.416207027E1,-1.890123606E0,1.430796785E1
4.834970573E0,2.492668629E-1,-1.340919304E1,1.685783386E0,1.351704323E1
4.844969306E0,1.803084135E0,-1.281439686E1,6.119359493E0,1.431455343E1
4.854968039E0,1.351243973E0,-1.203574181E1,9.129853249E0,1.516704195E1
4.864966739E0,2.282985687E0,-1.219060898E1,1.226159000E1,1.744045757E1
4.874965472E0,1.972811460E0,-1.181125832E1,1.200994110E1,1.695984945E1
4.884964238E0,3.365134239E0,-1.144646740E1,1.700784683E1,2.077528816E1
4.894962938E0,4.298769474E0,-1.137092400E1,1.700942421E1,2.090688507E1
4.904961704E0,4.807954311E0,-1.020897293E1,2.053495979E1,2.343126387E1
4.914960470E0,4.551378250E0,-9.375698090E0,2.268052101E1,2.496046458E1
4.924959170E0,4.749720573E0,-8.543928146E0,2.394219971E1,2.586092575E1
4.934957936E0,5.328819752E0,-8.024877548E0,2.566954041E1,2.741751783E1
4.944956669E0,5.851724625E0,-7.575337887E0,2.653635406E1,2.821004276E1
4.954955469E0,6.829462528E0,-7.389806271E0,2.778775024E1,2.955350840E1
4.964954235E0,7.584781647E0,-7.188059807E0,2.908230400E1,3.090271060E1
4.974953001E0,7.693416119E0,-7.165769100E0,3.013089943E1,3.191250537E1
4.984951767E0,7.329997540E0,-7.270113468E0,3.074545670E1,3.243249175E1
4.994950533E0,6.861402512E0,-7.584045410E0,3.026214600E1,3.194360765E1
5.004949199E0,6.287066460E0,-7.946784973E0,2.853778648E1,3.028339237E1
5.014947999E0,5.437537670E0,-8.004993439E0,2.573987007E1,2.749886629E1
5.024946765E0,4.858859539E0,-8.037745476E0,2.226658249E1,2.416639328E1
5.034945465E0,4.900017262E0,-8.432784081E0,1.944129562E1,2.175054004E1
5.044944231E0,5.054839611E0,-9.050996780E0,1.599230766E1,1.905848500E1
5.054942997E0,4.874756813E0,-9.813081741E0,1.308041954E1,1.706332918E1
5.064941763E0,4.125144005E0,-1.049449730E1,1.027148628E1,1.525302321E1
5.074940529E0,3.502561569E0,-1.118382645E1,7.241764069E0,1.377639497E1
5.084939329E0,2.534065723E0,-1.192060089E1,3.724799156E0,1.274348239E1
5.094938095E0,1.149862289E0,-1.175967216E1,2.417363644E0,1.206050246E1
5.104936861E0,-9.164438248E-1,-1.123186874E1,4.281282425E-1,1.127732409E1
5.114935561E0,-2.219015598E0,-1.162238598E1,-3.049943447E0,1.221908512E1
5.124934327E0,-2.449016571E0,-1.205986214E1,-6.595531940E0,1.396205567E1
5.134933093E0,-1.444693327E0,-1.195483685E1,-9.948955536E0,1.562008256E1
5.144931793E0,-9.984387755E-1,-1.205585289E1,-1.341154289E1,1.806128322E1
5.154930559E0,-1.570479870E0,-1.180343151E1,-1.592445087E1,1.988405236E1
5.164929292E0,-2.914238930E0,-1.134051704E1,-1.869594765E1,2.205988608E1
5.174927992E0,-3.672224045E0,-1.111333752E1,-1.909848213E1,2.239963214E1
5.184926725E0,-4.402359486E0,-1.088239861E1,-1.860787201E1,2.200136971E1
5.194925458E0,-4.658477783E0,-1.059592152E1,-1.673353958E1,2.034665366E1
5.204924191E0,-4.491228104E0,-1.045146179E1,-1.499627972E1,1.882266158E1
5.214922924E0,-4.026708126E0,-1.039716625E1,-1.427090645E1,1.811005840E1
5.224921657E0,-3.729704142E0,-1.023406029E1,-1.404399109E1,1.777302362E1
5.234920390E0,-3.205413818E0,-1.038037682E1,-1.403165913E1,1.774582651E1
5.244919156E0,-2.686184883E0,-1.056151676E1,-1.407713985E1,1.780244624E1
5.254917822E0,-2.234141350E0,-1.079462051E1,-1.374189091E1,1.761688921E1
5.264916555E0,-1.827300191E0,-1.121940994E1,-1.305832672E1,1.731282999E1
5.274915321E0,-1.744063854E0,-1.149668217E1,-1.226789284E1,1.690315516E1
5.284914021E0,-1.560466290E0,-1.186538601E1,-1.134664059E1,1.649147334E1
5.294912787E0,-1.323213696E0,-1.236415958E1,-1.058271599E1,1.632841739E1
5.304911587E0,-9.919635653E-1,-1.287476349E1,-1.013963699E1,1.641815352E1
5.314910353E0,-9.996113181E-1,-1.329711056E1,-9.586536407E0,1.642297331E1
5.324909119E0,-1.314643621E0,-1.377758980E1,-7.922432423E0,1.594726321E1
5.334907885E0,-1.665197849E0,-1.382968140E1,-5.720281601E0,1.505837285E1
5.344906651E0,-1.628370285E0,-1.364385796E1,-2.011977673E0,1.388720648E1
5.354905417E0,-1.713221192E0,-1.323609924E1,2.946327686E0,1.366785634E1
5.364904117E0,-6.914737225E-1,-1.244651222E1,8.927460670E0,1.533275437E1
5.374902883E0,6.750552654E-1,-1.107242775E1,1.418498802E1,1.800744960E1
5.384901649E0,2.556528330E0,-9.787912369E0,1.922827911E1,2.172707489E1
5.394900349E0,4.364881516E0,-9.196312904E0,2.109012222E1,2.341831798E1
5.404899115E0,6.104423523E0,-9.394234657E0,1.979188156E1,2.274278363E1
5.414897881E0,8.350492477E0,-7.601991653E0,2.200250626E1,2.473118039E1
5.424896647E0,8.372072220E0,-7.816296101E0,2.567972946E1,2.811822511E1
5.434895413E0,7.581502914E0,-7.635679245E0,2.640450096E1,2.851281212E1
5.444894179E0,6.200219154E0,-7.454477310E0,2.971156693E1,3.125362633E1
5.454892945E0,6.329823971E0,-7.833370686E0,3.133998299E1,3.291842799E1
5.464891711E0,6.715289593E0,-8.470713615E0,3.295957947E1,3.468691370E1
5.474890477E0,6.538997650E0,-8.814758301E0,3.194013786E1,3.377322698E1
5.484889243E0,6.745468140E0,-9.182691574E0,3.121929741E1,3.323353270E1
5.494888043E0,6.273092270E0,-9.509298325E0,2.842230988E1,3.062035499E1
5.504886876E0,4.929525852E0,-9.832372665E0,2.373505783E1,2.615967790E1
5.514885776E0,4.245695591E0,-1.035923004E1,2.056476402E1,2.341471967E1
5.524884742E0,3.366951942E0,-1.092278290E1,1.692884445E1,2.042619216E1
5.534883675E0,2.551118851E0,-1.143967915E1,1.340634918E1,1.780743285E1
5.544882675E0,2.042151451E0,-1.183771706E1,9.887950897E0,1.555871141E1
5.554881675E0,1.785278320E0,-1.209626961E1,6.174664497E0,1.369793557E1
5.564880708E0,1.364406824E0,-1.199870872E1,3.417221546E0,1.255021992E1
5.574879741E0,2.558269501E-1,-1.140465927E1,2.127612114E0,1.160424206E1
5.584878841E0,-9.901940823E-1,-1.111688519E1,1.914978027E-1,1.116253967E1
5.594877941E0,-2.196860313E0,-1.104113865E1,-3.283171654E0,1.172655764E1
5.604877041E0,-1.938045382E0,-1.090713310E1,-6.202200890E0,1.269601781E1
5.614876074E0,-8.150080442E-1,-1.055596352E1,-9.861522675E0,1.446866384E1
5.624875174E0,-4.457259178E-1,-1.016329002E1,-1.444270802E1,1.766586965E1
5.634874274E0,-5.234254599E-1,-1.017252541E1,-1.742647934E1,2.018505461E1
5.644873307E0,-1.305237532E0,-9.915417671E0,-1.980229759E1,2.218445723E1
5.654872407E0,-2.679769993E0,-9.865236282E0,-2.074451828E1,2.312658844E1
5.664871507E0,-3.245927334E0,-9.886497498E0,-2.055247307E1,2.303655847E1
5.674870607E0,-3.580612183E0,-1.005471992E1,-1.972777748E1,2.242996613E1
5.684869707E0,-3.826498985E0,-9.912919998E0,-1.852457047E1,2.135574368E1
5.694868807E0,-3.378841877E0,-1.004429340E1,-1.806267738E1,2.094193679E1
5.704867907E0,-2.397284746E0,-1.000810051E1,-1.731739807E1,2.014451106E1
5.714867007E0,-7.414326072E-1,-1.009224987E1,-1.678479385E1,1.959929934E1
5.724866040E0,8.022956848E-1,-1.011196232E1,-1.573001671E1,1.871707472E1
5.734865140E0,1.651185870E0,-1.011362934E1,-1.455083179E1,1.779715200E1
5.744864240E0,1.936438918E0,-1.026636600E1,-1.312601566E1,1.677618413E1
5.754863273E0,1.547278047E0,-1.052071571E1,-1.207612038E1,1.609074926E1
5.764862373E0,8.970712423E-1,-1.093118000E1,-1.144432259E1,1.585143377E1
5.774861473E0,2.354165316E-1,-1.125312805E1,-1.090083504E1,1.566896667E1
5.784860506E0,-1.159901619E-1,-1.153344536E1,-9.944959641E0,1.522944640E1
5.794859572E0,2.212245464E-1,-1.171281624E1,-7.941890717E0,1.415318454E1
5.804858538E0,5.647614002E-1,-1.180403996E1,-3.420546293E0,1.230261971E1
5.814857504E0,7.295835018E-1,-1.156019402E1,1.143026829E0,1.163945394E1
5.824856404E0,1.137147665E0,-1.099638557E1,8.869467735E0,1.417325151E1
5.834855270E0,1.956912994E0,-1.062319374E1,1.433945847E1,1.795276644E1
5.844854136E0,3.040118933E0,-1.071644592E1,1.935206604E1,2.232906170E1
5.854853002E0,4.106745720E0,-1.092205334E1,2.196579361E1,2.487273002E1
5.864851768E0,6.244602203E0,-1.124996948E1,2.317014122E1,2.650306235E1
5.874850568E0,5.761918545E0,-1.001628685E1,2.704660797E1,2.941164243E1
5.884849301E0,6.173065662E0,-1.092835236E1,2.953427505E1,3.209063770E1
5.894847967E0,5.950152397E0,-1.103607655E1,3.279349518E1,3.510858335E1
5.904846667E0,6.020534515E0,-1.094237518E1,3.590249252E1,3.801277917E1
5.914845400E0,7.199641228E0,-1.114115906E1,3.709185791E1,3.939246352E1
5.924844133E0,8.628719330E0,-1.101320171E1,3.600093460E1,3.862399127E1
5.934842899E0,8.885295868E0,-1.033253765E1,3.331053925E1,3.599030205E1
5.944841665E0,8.129686356E0,-9.900257111E0,2.997496414E1,3.259762823E1
5.954840431E0,6.725920677E0,-9.834848404E0,2.654960251E1,2.910057809E1
5.964839197E0,5.147710323E0,-1.030323410E1,2.292504883E1,2.565567029E1
5.974837897E0,4.009462357E0,-1.100326157E1,1.996516228E1,2.314638759E1
5.984836663E0,3.111053467E0,-1.166185665E1,1.646985245E1,2.041895183E1
5.994835429E0,2.838133335E0,-1.227601814E1,1.379845810E1,1.868563802E1
6.004834129E0,2.493611813E0,-1.269334984E1,1.085412788E1,1.688642420E1
6.014832895E0,2.368327856E0,-1.304985428E1,7.568799496E0,1.527070396E1
6.024831661E0,2.233536005E0,-1.297610283E1,5.050190449E0,1.410221087E1
6.034830361E0,1.897171021E0,-1.304376698E1,2.483948231E0,1.341302030E1
6.044829127E0,7.412197590E-1,-1.284285355E1,-1.362545013E0,1.293618270E1
6.054827893E0,4.752371311E-1,-1.285631180E1,-4.855596066E0,1.375090603E1
6.064826626E0,4.603772163E-1,-1.261810970E1,-8.545928955E0,1.524668952E1
6.074825392E0,-3.806562424E-1,-1.243257904E1,-1.165891075E1,1.704828791E1
6.084824158E0,-1.571786523E0,-1.220619488E1,-1.458533287E1,1.908385813E1
6.094822924E0,-2.661467075E0,-1.235750580E1,-1.701803207E1,2.119916914E1
6.104821690E0,-3.674711704E0,-1.205546188E1,-1.825922012E1,2.218640996E1
6.114820390E0,-3.973001003E0,-1.200658035E1,-1.845507622E1,2.237258472E1
6.124819123E0,-3.949479818E0,-1.222512054E1,-1.941948700E1,2.328451070E1
6.134817889E0,-3.390248775E0,-1.189683723E1,-2.018818474E1,2.367680988E1
6.144816589E0,-4.203067780E0,-1.077726555E1,-1.780302238E1,2.123117607E1
6.154815355E0,-2.638091803E0,-1.081809044E1,-1.955388832E1,2.250211451E1
6.164814121E0,-2.778773546E0,-1.067031002E1,-1.914107895E1,2.208977143E1
6.174812887E0,-1.993580818E0,-1.086573315E1,-1.761862564E1,2.079554017E1
6.184811653E0,-9.194869995E-1,-1.077018929E1,-1.648444557E1,1.971241688E1
6.194810386E0,-4.018926024E-1,-1.050986576E1,-1.396794605E1,1.748491673E1
6.204809186E0,6.390619278E-2,-1.091266727E1,-1.167005634E1,1.597750312E1
6.214807952E0,1.332868338E-1,-1.073343754E1,-9.995107651E0,1.466719550E1
6.224806652E0,2.738515139E-1,-1.064181995E1,-8.362771988E0,1.353732920E1
6.234805385E0,3.089352846E-1,-1.068771362E1,-7.541184425E0,1.308404089E1
6.244804118E0,3.649863005E-1,-1.083725357E1,-7.057864189E0,1.293803412E1
6.254802784E0,2.387295961E-1,-1.110846519E1,-6.933900833E0,1.309709783E1
6.264801517E0,-3.447808027E-1,-1.125663376E1,-6.987837791E0,1.325369965E1
6.274800250E0,-9.866181612E-1,-1.161381531E1,-6.419566631E0,1.330657571E1
6.284798916E0,-1.001384735E0,-1.212832737E1,-4.029096603E0,1.281923226E1
6.294797649E0,-9.486640692E-1,-1.210604095E1,-1.244069576E0,1.220671537E1
6.304796382E0,-5.549981594E-1,-1.183851242E1,2.081082821E0,1.203284276E1
6.314795115E0,2.369332314E-1,-1.158673477E1,6.728260040E0,1.340067324E1
6.324793848E0,1.269530773E0,-1.176313972E1,9.407720566E0,1.511583179E1
6.334792614E0,1.790230751E0,-1.155240440E1,1.248577309E1,1.710431242E1
6.344791380E0,3.227511406E0,-1.171297646E1,1.563458061E1,1.980027167E1
6.354790113E0,3.988428593E0,-1.170829582E1,1.788020706E1,2.174151693E1
6.364788846E0,4.372616291E0,-1.151130867E1,2.082343674E1,2.419184817E1
6.374787612E0,4.143646717E0,-1.087232971E1,2.461854172E1,2.722957873E1
6.384786378E0,4.482117653E0,-1.128665924E1,2.687977791E1,2.949577115E1
6.394785078E0,4.765106678E0,-1.100951195E1,2.665875244E1,2.923362237E1
6.404783844E0,4.980014801E0,-1.092804146E1,2.824016571E1,3.068761309E1
6.414782577E0,4.570259094E0,-9.855049133E0,2.792159843E1,2.996038920E1
6.424781377E0,4.821983337E0,-9.219526291E0,2.750862885E1,2.941047176E1
6.434780143E0,4.923637390E0,-8.654297829E0,2.742889404E1,2.918018685E1
6.444778909E0,5.466995716E0,-8.832067490E0,2.770635796E1,2.958945301E1
6.454777675E0,5.735952377E0,-9.090565681E0,2.758741951E1,2.960752015E1
6.464776441E0,6.196932793E0,-9.468982697E0,2.636750031E1,2.869335605E1
6.474775141E0,6.076584339E0,-9.617765427E0,2.497019005E1,2.743969169E1
6.484773907E0,5.455132484E0,-9.797194481E0,2.269918823E1,2.531791138E1
6.494772707E0,4.567730427E0,-1.009462357E1,2.054196930E1,2.333962487E1
6.504771407E0,3.705416679E0,-1.063325691E1,1.834513283E1,2.152533772E1
6.514770173E0,2.854052544E0,-1.133294296E1,1.628199005E1,2.004206606E1
6.524768939E0,2.149326324E0,-1.231779957E1,1.334634209E1,1.828859308E1
6.534767639E0,1.714351177E0,-1.297778034E1,1.151294327E1,1.743300448E1
6.544766405E0,1.242834091E0,-1.358914471E1,9.077583313E0,1.638938709E1
6.554765171E0,7.666652203E-1,-1.397263908E1,6.609804153E0,1.547617296E1
6.564763937E0,2.191891670E-1,-1.413827896E1,4.308179855E0,1.478172485E1
6.574762703E0,-5.229713917E-1,-1.378588200E1,1.874939442E0,1.392262329E1
6.584761503E0,-9.538908005E-1,-1.329152298E1,-1.171663284E0,1.337711799E1
6.594760303E0,-4.663195610E-1,-1.319042397E1,-3.856959820E0,1.375066825E1
6.604759203E0,4.954586029E-1,-1.231061840E1,-7.294692039E0,1.431814711E1
6.614758103E0,1.141103148E0,-1.208625603E1,-1.038114738E1,1.597335037E1
6.624757069E0,9.120395184E-1,-1.161231422E1,-1.307551384E1,1.751133119E1
6.634756035E0,4.369112253E-1,-1.156895638E1,-1.510772705E1,1.903352463E1
6.644754968E0,-8.318915367E-1,-1.150285530E1,-1.604770660E1,1.976199916E1
6.654754001E0,-1.884392977E0,-1.192731285E1,-1.617160034E1,2.018247721E1
6.664753067E0,-3.011780262E0,-1.211383438E1,-1.600327873E1,2.029583046E1
6.674752133E0,-3.642719269E0,-1.218105316E1,-1.568275261E1,2.018901160E1
6.684751199E0,-3.991928101E0,-1.211796570E1,-1.700641823E1,2.126026443E1
6.694750265E0,-3.848475218E0,-1.174339104E1,-1.842242241E1,2.218340916E1
6.704749331E0,-3.379003525E0,-1.151322842E1,-1.830035210E1,2.188321229E1
6.714748431E0,-2.480053902E0,-1.164777946E1,-1.789058685E1,2.149173171E1
6.724747431E0,-1.441099286E0,-1.149127388E1,-1.723545837E1,2.076504678E1
6.734746497E0,-5.558129549E-1,-1.115521240E1,-1.652195740E1,1.994298794E1
6.744745563E0,4.962847233E-1,-1.131088638E1,-1.429179573E1,1.823287894E1
6.754744563E0,5.544530153E-1,-1.124243927E1,-1.235043907E1,1.671027241E1
6.764743629E0,7.148342133E-1,-1.116660118E1,-1.145161533E1,1.601072964E1
6.774742695E0,9.223948717E-1,-1.106921482E1,-1.021168137E1,1.508829896E1
6.784741695E0,1.443051457E0,-1.107499218E1,-8.865189552E0,1.425936307E1
6.794740761E0,1.048818588E0,-1.111177826E1,-8.404492378E0,1.397165447E1
6.804739827E0,4.007539749E-1,-1.156394768E1,-8.430200577E0,1.431620660E1
6.814738893E0,-8.060132265E-1,-1.213415623E1,-7.709753036E0,1.439887831E1
6.824737959E0,-1.657212138E0,-1.285208321E1,-5.476752281E0,1.406830517E1
6.834737025E0,-1.968217611E0,-1.283512974E1,-2.616535425E0,1.324615769E1
6.844736091E0,-6.564642191E-1,-1.275781631E1,2.181627750E0,1.295964205E1
6.854735157E0,3.247263432E-1,-1.197702980E1,8.608497620E0,1.475333594E1
6.864734157E0,2.426195383E0,-1.169593620E1,1.507969284E1,1.923742404E1
6.874733223E0,4.592603207E0,-1.144186878E1,1.970522499E1,2.324444573E1
6.884732256E0,7.009871006E0,-1.209883881E1,2.191371155E1,2.599482537E1
6.894731222E0,7.760833263E0,-1.269750309E1,2.233855057E1,2.684153422E1
6.904730155E0,6.771883011E0,-1.140944481E1,2.767740059E1,3.069319686E1
6.914729021E0,5.430767059E0,-1.165028667E1,2.928390503E1,3.198076772E1
6.924727887E0,5.054777145E0,-1.159139919E1,3.003931999E1,3.259251529E1
6.934726687E0,4.604718685E0,-1.081678200E1,3.166571999E1,3.377756695E1
6.944725487E0,6.334112644E0,-1.031279373E1,3.243624115E1,3.462057824E1
6.954724287E0,7.987983227E0,-9.623968124E0,3.291392517E1,3.521015633E1
6.964723020E0,9.525260925E0,-9.001280785E0,3.242167664E1,3.497025547E1
6.974721686E0,9.885311127E0,-8.784238815E0,3.116658783E1,3.385614308E1
6.984720419E0,8.822427750E0,-8.867127419E0,2.958693695E1,3.212239123E1
6.994719119E0,6.886883736E0,-9.256081581E0,2.670400429E1,2.908965553E1
7.004717785E0,5.363777161E0,-9.720329285E0,2.286335373E1,2.541629105E1
7.014716518E0,4.543833256E0,-1.008025265E1,1.978764915E1,2.266735479E1
7.024715251E0,3.947113037E0,-1.043775558E1,1.637520409E1,1.981599737E1
7.034713917E0,3.500765800E0,-1.069121361E1,1.282974625E1,1.706340524E1
7.044712650E0,3.225070953E0,-1.109067154E1,9.933773041E0,1.523430092E1
7.054711416E0,2.939373970E0,-1.135580444E1,6.847498894E0,1.358243185E1
7.064710182E0,2.212808609E0,-1.160196304E1,4.210813046E0,1.253925895E1
7.074708948E0,1.627979517E0,-1.173911095E1,2.190096855E0,1.205211879E1
7.084707714E0,-3.633785248E-2,-1.177378750E1,-8.027539253E-1,1.180117818E1
7.094706447E0,-1.537876487E0,-1.165682793E1,-3.996433258E0,1.241846126E1
7.104705213E0,-2.809858084E0,-1.162772560E1,-6.840161800E0,1.377995350E1
7.114703913E0,-2.816649437E0,-1.106322670E1,-9.870858192E0,1.509179713E1
7.124702679E0,-2.631509304E0,-1.125287819E1,-1.263694191E1,1.712438056E1
7.134701445E0,-2.767587185E0,-1.100922680E1,-1.421315765E1,1.819001001E1
7.144700145E0,-2.853670359E0,-1.089196587E1,-1.600070190E1,1.956529623E1
7.154698878E0,-2.768479586E0,-1.086703682E1,-1.690965462E1,2.029022887E1
7.164697644E0,-3.057309628E0,-1.054682732E1,-1.774972343E1,2.087188038E1
7.174696410E0,-3.455866337E0,-1.052625942E1,-1.789896393E1,2.105036958E1
7.184695176E0,-3.645069122E0,-1.078226089E1,-1.738520622E1,2.077953499E1
7.194693942E0,-3.733302116E0,-1.068753433E1,-1.603467560E1,1.962834064E1
7.204692708E0,-3.369255781E0,-1.087949181E1,-1.501908970E1,1.884909234E1
7.214691474E0,-2.748922348E0,-1.108603668E1,-1.381925011E1,1.792842595E1
7.224690140E0,-2.301467419E0,-1.119755173E1,-1.305432034E1,1.735215250E1
7.234688940E0,-1.633888245E0,-1.141587639E1,-1.269622517E1,1.715184999E1
7.244687706E0,-9.432744980E-1,-1.168667316E1,-1.197554302E1,1.675952646E1
7.254686406E0,-4.817863703E-1,-1.198349762E1,-1.150778770E1,1.662123675E1
7.264685172E0,-4.404755831E-1,-1.234544754E1,-1.095905781E1,1.651378339E1
7.274683938E0,-8.087723255E-1,-1.286874008E1,-1.030929470E1,1.650878982E1
7.284682604E0,-1.588525057E0,-1.320248413E1,-9.498523712E0,1.634169366E1
7.294681404E0,-2.163379669E0,-1.375292301E1,-8.191401482E0,1.615308519E1
7.304680170E0,-2.843744755E0,-1.385623360E1,-6.118455887E0,1.541160589E1
7.314678936E0,-2.576008320E0,-1.392083549E1,-3.687204361E0,1.462945507E1
7.324677702E0,-1.572993875E0,-1.355473614E1,-1.940984726E-1,1.364708231E1
7.334676468E0,-6.541440487E-1,-1.282337189E1,4.383553505E0,1.356769370E1
7.344675234E0,5.672388077E-1,-1.198310757E1,8.769844055E0,1.486024198E1
7.354673967E0,2.017862797E0,-1.117060852E1,1.276097679E1,1.707913328E1
7.364672633E0,3.205426216E0,-1.025067711E1,1.625600052E1,1.948354925E1
7.374671366E0,4.466027260E0,-1.013000774E1,1.856492996E1,2.161525112E1
7.384670099E0,5.276639462E0,-9.960727692E0,1.933006287E1,2.237655806E1
7.394668799E0,6.538512707E0,-1.000995827E1,2.038786697E1,2.363506997E1
7.404667532E0,6.240855694E0,-9.839684486E0,2.498612595E1,2.756944251E1
7.414666265E0,6.393238068E0,-1.022805786E1,2.706768799E1,2.963353495E1
7.424664998E0,8.354967117E0,-1.143230438E1,2.980832481E1,3.300059526E1
7.434663731E0,1.249222946E1,-1.192771721E1,3.619813919E1,4.010774882E1
7.444662464E0,1.013388252E1,-9.408693314E0,3.801042175E1,4.044763586E1
7.454661230E0,8.821228027E0,-1.078252888E1,3.194280815E1,3.484852917E1
7.464659996E0,8.747386932E0,-1.007201767E1,2.711071014E1,3.021511083E1
7.474658696E0,7.663702488E0,-9.608012199E0,2.628469086E1,2.901605086E1
7.484657462E0,6.867749691E0,-1.011828327E1,2.327396011E1,2.629111754E1
7.494656228E0,6.198233604E0,-1.065659332E1,2.101347351E1,2.436282311E1
7.504654928E0,4.982384682E0,-1.102843094E1,1.891166306E1,2.245220358E1
7.514653694E0,4.331072330E0,-1.174878311E1,1.651661491E1,2.072656895E1
7.524652494E0,3.628324032E0,-1.228151321E1,1.400121689E1,1.897457184E1
7.534651194E0,3.359637260E0,-1.295014954E1,1.156364250E1,1.768364678E1
7.544649960E0,2.635839939E0,-1.344553375E1,8.563068390E0,1.615723276E1
7.554648726E0,2.275592327E0,-1.395798683E1,6.815199375E0,1.569874706E1
7.564647492E0,1.787769794E0,-1.439729881E1,5.010007858E0,1.534856712E1
7.574646258E0,1.147335052E0,-1.477636528E1,3.052704811E0,1.513196469E1
7.584645058E0,-3.183324337E-1,-1.472413063E1,9.256176949E-1,1.475662992E1
7.594643824E0,-1.387427092E0,-1.462500858E1,-2.205895185E0,1.485536279E1
7.604642590E0,-1.810368657E0,-1.427294540E1,-5.461468697E0,1.538902354E1
7.614641290E0,-8.257322311E-1,-1.359273911E1,-7.856228352E0,1.572147302E1
7.624640056E0,3.131827116E-1,-1.300168800E1,-1.092660904E1,1.698625207E1
7.634638822E0,6.250609159E-1,-1.195040894E1,-1.363418293E1,1.814094592E1
7.644637522E0,4.728708267E-1,-1.141536045E1,-1.557006264E1,1.931219593E1
7.654636288E0,-6.169583797E-1,-1.091673565E1,-1.648615646E1,1.978254558E1
7.664635054E0,-1.805724263E0,-1.067940140E1,-1.658600998E1,1.980923980E1
7.674633820E0,-2.725037575E0,-1.048184586E1,-1.650691414E1,1.974267299E1
7.684632620E0,-3.433711529E0,-1.029893589E1,-1.608431435E1,1.940524731E1
7.694631453E0,-3.812310696E0,-1.012982178E1,-1.588888359E1,1.922507799E1
7.704630286E0,-4.001667023E0,-9.887046814E0,-1.578162003E1,1.904800683E1
7.714629186E0,-3.757766962E0,-9.848995209E0,-1.578073788E1,1.897775559E1
7.724628019E0,-3.051146984E0,-9.831943512E0,-1.582469749E1,1.887849734E1
7.734626919E0,-2.310857773E0,-9.921915054E0,-1.586790943E1,1.885669673E1
7.744625785E0,-1.518284798E0,-1.002900887E1,-1.564583492E1,1.864613520E1
7.754624618E0,-4.401825070E-1,-1.045994568E1,-1.490613270E1,1.821529622E1
7.764623484E0,-8.210062981E-2,-1.062171841E1,-1.355786514E1,1.722333736E1
7.774622350E0,4.339748621E-1,-1.107333565E1,-1.226465416E1,1.652963515E1
7.784621150E0,1.170626283E0,-1.162397766E1,-1.064438438E1,1.580475060E1
7.794620016E0,1.614802718E0,-1.210088253E1,-9.247953415E0,1.531546892E1
7.804618882E0,1.602861881E0,-1.258146000E1,-7.730908394E0,1.485359372E1
7.814617748E0,1.499757051E0,-1.317897606E1,-6.041224957E0,1.457501561E1
7.824616614E0,1.247081757E0,-1.407769012E1,-3.377261639E0,1.453074218E1
7.834615480E0,8.598322868E-1,-1.436997509E1,1.346327782E0,1.445849557E1
7.844614346E0,3.482499123E-1,-1.448478317E1,6.859726429E0,1.603078502E1
7.854613212E0,1.048221588E-1,-1.458440113E1,1.085450363E1,1.818064886E1
7.864612012E0,1.869502068E-1,-1.440757179E1,1.562562561E1,2.125495827E1
7.874610878E0,3.801288605E-1,-1.370257854E1,2.010026932E1,2.432952904E1
7.884609744E0,2.366193056E0,-1.338547516E1,2.346994209E1,2.712209425E1
7.894608544E0,3.424969196E0,-1.222950554E1,2.584448242E1,2.879632774E1
7.904607410E0,5.046526909E0,-1.111216640E1,2.637734032E1,2.906392538E1
7.914606276E0,6.174601555E0,-9.542056084E0,2.608498764E1,2.845352560E1
7.924605142E0,6.827578545E0,-7.834894180E0,2.769511414E1,2.958074953E1
7.934604008E0,7.174264431E0,-7.168030739E0,2.600442505E1,2.791201994E1
7.944602874E0,6.457952023E0,-6.698815346E0,2.650414085E1,2.809001164E1
7.954601740E0,5.163233757E0,-6.865969181E0,2.656554031E1,2.792003667E1
7.964600606E0,4.470499039E0,-7.166205406E0,2.635012054E1,2.767071944E1
7.974599406E0,3.726527214E0,-7.356366158E0,2.543405914E1,2.673751097E1
7.984598239E0,2.781225681E0,-7.497081757E0,2.358821487E1,2.490673267E1
7.994597039E0,1.925289154E0,-7.849068642E0,2.075061035E1,2.226886721E1
8.004595772E0,1.115767479E0,-8.372804642E0,1.719999695E1,1.916216819E1
8.014594505E0,-9.794378281E-2,-8.866043091E0,1.335175800E1,1.602765594E1
8.024593238E0,-5.739631653E-1,-9.449199677E0,9.800071716E0,1.362564545E1
8.034591904E0,-6.943986416E-1,-9.996520996E0,7.578245163E0,1.256353538E1
8.044590670E0,-8.270425797E-1,-1.036899757E1,5.202517033E0,1.163040384E1
8.054589403E0,-6.194899082E-1,-1.091281509E1,2.319973469E0,1.117387927E1
8.064588136E0,-1.063577533E0,-1.097780323E1,6.021723747E-1,1.104563138E1
8.074586869E0,-1.421830654E0,-1.099111462E1,-1.506469727E0,1.118461684E1
8.084585635E0,-1.734620094E0,-1.128293133E1,-4.463825226E0,1.225720938E1
8.094584401E0,-2.681054831E0,-1.082213116E1,-7.389517307E0,1.337578199E1
8.104583167E0,-2.510142803E0,-1.106079006E1,-7.022115707E0,1.333986517E1
8.114581867E0,-2.424802065E0,-1.058594418E1,-1.123019791E1,1.562239496E1
8.124580633E0,-3.074525833E0,-1.022753429E1,-1.200552559E1,1.606822366E1
8.134579399E0,-4.117377758E0,-9.692310333E0,-1.170775223E1,1.574690895E1
8.144578099E0,-4.576943874E0,-9.767645836E0,-1.138501740E1,1.568355640E1
8.154576865E0,-4.986616611E0,-9.725703239E0,-1.080528259E1,1.536911776E1
8.164575631E0,-4.357158661E0,-9.401649475E0,-9.056844711E0,1.376235011E1
8.174574397E0,-3.632981062E0,-8.696112633E0,-7.619450569E0,1.211928023E1
8.184573163E0,-2.395890951E0,-8.357254982E0,-6.727325439E0,1.099276634E1
8.194571929E0,-1.726374030E0,-7.745889664E0,-5.485751152E0,9.647416218E0
8.204570695E0,-1.137192607E0,-7.293152809E0,-3.908291817E0,8.352127265E0
8.214569461E0,-8.875955939E-1,-7.157090664E0,-2.966131210E0,7.798057904E0
8.224568161E0,-9.344007373E-1,-7.133936882E0,-1.895385504E0,7.440339131E0
8.234566927E0,-1.089146852E0,-7.066071510E0,-6.996598244E-1,7.183671159E0
8.244565693E0,-1.169770718E0,-6.693217278E0,2.286415100E-1,6.798514396E0
8.254564393E0,-1.419679165E0,-6.287129402E0,7.531509399E-1,6.489277417E0
8.264563159E0,-9.354591370E-1,-5.885322094E0,1.888446331E0,6.251266231E0
8.274561925E0,-9.496707320E-1,-5.895748138E0,2.030638218E0,6.307551996E0
8.284560625E0,-1.039715290E0,-6.220950603E0,2.637164116E0,6.836363717E0
8.294559391E0,1.531555176E0,-6.803727627E0,1.025193882E1,1.239913789E1
8.304558157E0,-5.504772663E-1,-5.842762947E0,1.315772629E1,1.440717409E1
8.314556923E0,5.164144039E-1,-5.271054745E0,1.126658249E1,1.244936074E1
8.324555689E0,-1.106575727E0,-6.325121403E0,9.652999878E0,1.159362227E1
8.334554455E0,-2.687549591E0,-6.403877258E0,7.708118916E0,1.037533922E1
8.344553221E0,-3.933537006E0,-6.286150455E0,7.694027424E0,1.068580642E1
8.354551987E0,-3.616450787E0,-6.690702915E0,7.336179256E0,1.056710688E1
8.364550687E0,-2.795377970E0,-7.288460732E0,7.490692616E0,1.081879262E1
8.374549420E0,-3.003521919E0,-7.766075611E0,8.417367935E0,1.183998130E1
8.384548153E0,-3.628221989E0,-8.004322052E0,9.259429932E0,1.276597857E1
8.394546819E0,-3.516451836E0,-7.702002048E0,9.523891449E0,1.274326400E1
8.404545552E0,-3.248701096E0,-7.899111271E0,9.021084785E0,1.242296214E1
8.414544285E0,-3.630933762E0,-7.930414200E0,8.706598282E0,1.232396052E1
8.424543018E0,-4.004460812E0,-7.880170822E0,8.967681885E0,1.259174797E1
8.434541718E0,-4.067948818E0,-7.786545277E0,9.274724960E0,1.277493710E1
8.444540451E0,-2.236213446E0,-7.533143044E0,8.835006714E0,1.182396881E1
8.454539184E0,-1.131828666E0,-6.999423027E0,8.753785133E0,1.126506605E1
8.464537917E0,-7.394874096E-1,-6.239447594E0,8.166920662E0,1.030418075E1
8.474536583E0,8.305311203E-3,-6.285835266E0,8.406461716E0,1.049668484E1
8.484535316E0,6.126837730E-1,-6.416647911E0,8.049862862E0,1.031256728E1
8.494534082E0,7.809333801E-1,-6.102433205E0,7.676519871E0,9.837606685E0
8.504532782E0,9.032111168E-1,-7.059905052E0,5.274505615E0,8.858806870E0
8.514531548E0,1.030175924E0,-6.382493019E0,4.818839073E0,8.063416744E0
8.524530314E0,-1.679582596E0,-5.273399353E0,3.363276958E0,6.476215742E0
8.534529014E0,-4.208876133E0,-2.873171329E0,4.271189690E0,6.649271626E0
8.544527780E0,-4.335665703E0,-3.448278189E0,3.248147964E0,6.421766482E0
8.554526546E0,-4.620914459E0,-2.150185108E0,4.376547337E0,6.717909871E0
8.564525312E0,-3.350336552E0,-2.782815456E0,2.228719711E0,4.892444014E0
8.574524078E0,-3.215829849E0,-3.517486572E0,2.801393986E0,5.528298262E0
8.584522844E0,-3.241500139E0,-3.944193602E0,2.668656826E0,5.760704434E0
8.594521577E0,-9.929034710E-1,-5.305548668E0,4.642952442E0,7.119811188E0
8.604520343E0,-2.033719063E0,-6.849936008E0,7.124681950E0,1.009052672E1
8.614519043E0,-2.532096148E0,-6.561374187E0,5.452305794E0,8.898920193E0
8.624517809E0,-2.192633152E0,-6.734512806E0,5.668279648E0,9.071421997E0
8.634516575E0,-1.854909778E0,-6.842227936E0,4.963023663E0,8.653807098E0
8.644515275E0,-1.587814331E0,-6.916240692E0,3.751366615E0,8.026723562E0
8.654514041E0,-1.401730061E0,-6.872796535E0,3.550709248E0,7.861788317E0
8.664512774E0,-1.431091547E0,-6.755717278E0,3.582488537E0,7.779586304E0
8.674511574E0,-2.006335258E0,-6.561406136E0,3.416594982E0,7.664890927E0
8.684510307E0,-2.618151188E0,-6.437086582E0,2.967590809E0,7.556281792E0
8.694509073E0,-2.620450258E0,-6.492743492E0,2.534319401E0,7.446156890E0
8.704507839E0,-2.794387341E0,-6.502325058E0,3.075088024E0,7.716540554E0
8.714506605E0,-2.743096352E0,-6.774298668E0,3.107553005E0,7.941825087E0
8.724505338E0,-2.445471764E0,-6.871185780E0,3.225382805E0,7.974748924E0
8.734504171E0,-2.038063526E0,-6.818287373E0,3.717843056E0,8.029016292E0
8.744503037E0,-1.974242687E0,-6.874600410E0,3.750594616E0,8.076182574E0
8.754501937E0,-2.198121071E0,-6.484265327E0,4.269041061E0,8.068590005E0
8.764500903E0,-2.343427181E0,-6.150595188E0,4.328793526E0,7.877812229E0
8.774499903E0,-2.603786469E0,-5.922166824E0,4.374708176E0,7.809598933E0
8.784498869E0,-2.932173967E0,-5.667916298E0,4.042918205E0,7.554343582E0
8.794497835E0,-2.652421951E0,-5.557851315E0,3.726895809E0,7.198250191E0
8.804496901E0,-2.571713209E0,-5.505073547E0,3.270481110E0,6.900405081E0
8.814495967E0,-2.588951826E0,-5.523003101E0,3.213844776E0,6.894565473E0
8.824495033E0,-2.633295536E0,-5.459591866E0,3.180836678E0,6.845371479E0
8.834494066E0,-2.675764561E0,-5.302062511E0,3.424903393E0,6.855767361E0
8.844493132E0,-2.620359421E0,-5.355933666E0,3.480000019E0,6.903818441E0
8.854492198E0,-5.078920841E0,-5.091776848E0,3.556218147E0,8.022986719E0
8.864491198E0,-2.075868130E0,-4.924008369E0,4.620428085E0,7.064236874E0
8.874490264E0,-2.088710070E0,-5.242234230E0,4.846403122E0,7.438504735E0
8.884489330E0,-2.017168760E0,-5.375052929E0,4.913816452E0,7.556835047E0
8.894488363E0,-2.352893829E0,-5.262929916E0,5.079229832E0,7.683301137E0
8.904487429E0,-2.759825230E0,-5.059312344E0,5.263933659E0,7.805272209E0
8.914486495E0,-3.014308929E0,-4.882439613E0,5.352140903E0,7.846635403E0
8.924485561E0,-2.938555002E0,-4.869517803E0,5.198163986E0,7.705077415E0
8.934484627E0,-2.722755432E0,-4.978741646E0,4.954453945E0,7.533118837E0
8.944483693E0,-2.333629608E0,-5.188317299E0,4.710274220E0,7.385874814E0
8.954482759E0,-1.980224848E0,-5.349971294E0,4.529138088E0,7.283994448E0
8.964481859E0,-2.059714794E0,-5.305986404E0,4.426234722E0,7.210233739E0
8.974480859E0,-2.386705875E0,-5.116712570E0,4.547374725E0,7.249533044E0
8.984479959E0,-3.000060558E0,-4.683333874E0,4.536700249E0,7.177438866E0
8.994479025E0,-3.061458588E0,-4.358131409E0,4.595027924E0,7.034210665E0
9.004478025E0,-3.000957012E0,-4.184001446E0,4.625964165E0,6.921788464E0
9.014477091E0,-2.833928347E0,-4.235985279E0,4.701611042E0,6.933964778E0
9.024476124E0,-2.745192289E0,-4.233386517E0,4.633414745E0,6.850268192E0
9.034475090E0,-2.398874283E0,-4.305773735E0,4.858568192E0,6.920980433E0
9.044474056E0,-2.566953897E0,-4.344278336E0,4.931314468E0,7.055485026E0
9.054472922E0,-2.708132267E0,-4.391359806E0,5.086274147E0,7.244874465E0
9.064471788E0,-2.836272001E0,-4.475906372E0,5.154994965E0,7.392709233E0
9.074470621E0,-2.746076584E0,-4.537603378E0,5.146901608E0,7.390627658E0
9.084469421E0,-2.609406233E0,-4.612023354E0,5.130663872E0,7.375870936E0
9.094468254E0,-2.426595688E0,-4.708912373E0,5.111620903E0,7.361446232E0
9.104466987E0,-2.430916071E0,-4.772189140E0,5.136386395E0,7.420620414E0
9.114465653E0,-2.857553244E0,-4.793682098E0,4.908949375E0,7.432548861E0
9.124464386E0,-2.892508507E0,-4.618577480E0,5.110042572E0,7.470635749E0
9.134463152E0,-2.666156054E0,-4.569365025E0,5.353157520E0,7.526206233E0
9.144461818E0,-2.119626999E0,-4.741556644E0,4.962083817E0,7.183136768E0
9.154460551E0,-2.159044743E0,-4.803832054E0,5.383285522E0,7.531138003E0
9.164459284E0,-2.496893883E0,-4.708299637E0,5.381116867E0,7.573571368E0
9.174457984E0,-2.472931862E0,-4.660767555E0,5.282653809E0,7.466229132E0
9.184456717E0,-2.183607578E0,-4.592567444E0,5.084510326E0,7.191110001E0
9.194455450E0,-2.041297674E0,-4.562848091E0,4.921815872E0,7.015037447E0
9.204454183E0,-2.064523220E0,-4.694159985E0,4.802415848E0,7.025709364E0
9.214452949E0,-2.166116714E0,-4.814815521E0,4.902348042E0,7.204687810E0
9.224451649E0,-2.303037167E0,-4.848372936E0,4.994657040E0,7.331936938E0
9.234450415E0,-2.423875332E0,-4.864865780E0,5.048872471E0,7.418436756E0
9.244449181E0,-2.499988079E0,-5.030579090E0,5.171257496E0,7.635350055E0
9.254447881E0,-2.353937149E0,-5.080945969E0,4.970031261E0,7.487205271E0
9.264446647E0,-2.114486456E0,-5.108072758E0,5.007256031E0,7.458959259E0
9.274445413E0,-1.905351162E0,-5.162129879E0,5.060897827E0,7.476003930E0
9.284444113E0,-1.709451437E0,-5.219442844E0,5.146943092E0,7.527006777E0
9.294442879E0,-1.684937716E0,-5.249438286E0,5.052396774E0,7.478123467E0
9.304441645E0,-1.726282120E0,-5.283481598E0,4.947620392E0,7.441382620E0
9.314440411E0,-1.781516552E0,-5.256062984E0,4.816858768E0,7.348614000E0
9.324439177E0,-1.774275303E0,-5.191839218E0,4.698678017E0,7.223629449E0
9.334437943E0,-1.701840401E0,-5.179002285E0,4.839695930E0,7.289786150E0
9.344436709E0,-1.625924349E0,-5.146534920E0,5.044963360E0,7.387970423E0
9.354435475E0,-1.714138746E0,-5.195555210E0,5.199615479E0,7.547719305E0
9.364434175E0,-1.940901041E0,-5.193477631E0,5.155135155E0,7.570648930E0
9.374432941E0,-2.095306635E0,-5.073678017E0,5.061760902E0,7.466856229E0
9.384431707E0,-2.224190474E0,-4.991915703E0,4.898787498E0,7.339234606E0
9.394430407E0,-2.089693546E0,-4.897042751E0,4.813557625E0,7.177616863E0
9.404429173E0,-2.128092051E0,-4.881710052E0,4.857491970E0,7.207988419E0
9.414427939E0,-2.061791420E0,-4.901049137E0,4.925577641E0,7.247936368E0
9.424426705E0,-2.045172453E0,-4.905333519E0,4.996880054E0,7.294781530E0
9.434425471E0,-1.994612575E0,-4.960151672E0,4.884198189E0,7.241337990E0
9.444424237E0,-1.960962534E0,-4.958250999E0,4.698857784E0,7.106960779E0
9.454423003E0,-1.817196846E0,-4.957205296E0,4.479353905E0,6.923922308E0
9.464421736E0,-1.708711386E0,-4.970783710E0,4.473221779E0,6.902035814E0
9.474420469E0,-1.725183725E0,-5.012425900E0,4.510493279E0,6.960260189E0
9.484419235E0,-1.832946897E0,-5.009872437E0,4.619056225E0,7.056500306E0
9.494418001E0,-1.846179724E0,-4.984321117E0,4.698062897E0,7.093915108E0
9.504416701E0,-1.780712008E0,-4.993783474E0,4.745354176E0,7.115278975E0
9.514415434E0,-1.698167324E0,-5.062889099E0,4.785933495E0,7.170897971E0
9.524414134E0,-1.756721139E0,-5.115967274E0,4.770500660E0,7.212271962E0
9.534412800E0,-1.804327607E0,-5.122470379E0,4.790639877E0,7.241928702E0
9.544411533E0,-1.770066738E0,-5.118256092E0,4.805885792E0,7.240595274E0
9.554410266E0,-1.702745318E0,-5.110236168E0,4.775314808E0,7.198436415E0
9.564408999E0,-1.630377769E0,-5.122302055E0,4.696208477E0,7.137960779E0
9.574407732E0,-1.662101626E0,-5.127770901E0,4.782959461E0,7.206477464E0
9.584406465E0,-1.833039761E0,-5.068881512E0,4.819231987E0,7.230393591E0
9.594405198E0,-1.829189181E0,-4.971529484E0,4.886379242E0,7.206853722E0
9.604403931E0,-1.794957757E0,-4.921719551E0,4.730526924E0,7.058546711E0
9.614402631E0,-1.830868125E0,-4.888511658E0,4.581831455E0,6.945703982E0
9.624401364E0,-1.862502217E0,-4.874044895E0,4.557091236E0,6.927648135E0
9.634400130E0,-1.822788477E0,-4.935252190E0,4.631359100E0,7.009191046E0
9.644398830E0,-1.853400111E0,-4.949871063E0,4.610539436E0,7.013799926E0
9.654397596E0,-1.874548435E0,-4.992878914E0,4.613098621E0,7.051485700E0
9.664396362E0,-1.829650760E0,-5.021184921E0,4.522066593E0,7.000643270E0
9.674395128E0,-1.807119012E0,-5.025610924E0,4.563160896E0,7.024591208E0
9.684393861E0,-1.867980957E0,-5.001333237E0,4.616176128E0,7.057745323E0
9.694392627E0,-1.886689186E0,-4.965701580E0,4.655520439E0,7.063402780E0
9.704391393E0,-1.842414021E0,-4.998241425E0,4.610532284E0,7.045134115E0
9.714390159E0,-1.803204417E0,-5.024837494E0,4.460209846E0,6.956580330E0
9.724388859E0,-1.823949337E0,-5.071428299E0,4.256409168E0,6.867546518E0
9.734387625E0,-1.841852903E0,-5.079635620E0,3.932641506E0,6.682872838E0
9.744386391E0,-1.724369764E0,-4.661957264E0,3.308727741E0,5.971178768E0
9.754385057E0,-1.630720615E0,-4.302606583E0,3.024879456E0,5.506502415E0
9.764383857E0,-1.654541016E0,-4.323326588E0,3.284507275E0,5.675971000E0
9.774382590E0,-1.709207058E0,-4.325305462E0,3.348041058E0,5.730535318E0
9.784381290E0,-1.667888403E0,-4.322222710E0,3.471595287E0,5.789251654E0
9.794380056E0,-1.610453010E0,-4.347855091E0,3.509658337E0,5.815075617E0
9.804378822E0,-1.562524199E0,-4.407728195E0,3.585169792E0,5.892621841E0
9.814377588E0,-1.565726280E0,-4.397409916E0,3.572105885E0,5.877810239E0
9.824376421E0,-1.623921871E0,-4.470656395E0,4.012060165E0,6.222581266E0
9.834375254E0,-1.553543448E0,-4.410599709E0,3.961555004E0,6.128687061E0
9.844374054E0,-1.462147713E0,-4.360216618E0,3.757209778E0,5.938517509E0
9.854372954E0,-1.396396756E0,-4.368752480E0,3.390232563E0,5.703472535E0
9.864371787E0,-1.367611885E0,-4.364872932E0,3.077756405E0,5.513171725E0
9.874370687E0,-1.439090967E0,-4.276488781E0,3.074541092E0,5.460049636E0
